study_word,test,reference,old_new,trials.thisRepN,trials.thisTrialN,trials.thisN,trials.thisIndex,trials_2.thisRepN,trials_2.thisTrialN,trials_2.thisN,trials_2.thisIndex,thisRow.t,notes,trial.started,text.started,slider.started,trial.stopped,slider.response,slider.rt,text_2.started,text_3.started,textbox.started,text_4.started,mouse.started,text_2.stopped,textbox.text,mouse.x,mouse.y,mouse.leftButton,mouse.midButton,mouse.rightButton,mouse.time,mouse.clicked_name,participant,session,date,expName,psychopyVersion,frameRate,expStart,
poster,,,,0,0,0,14,,,,,0.05351569992490113,,0.011852499796077609,0.05351569992490113,0.05351569992490113,4.445289599942043,1.0,4.406967899994925,,,,,,,,,,,,,,,ad,001,2024-10-28_23h29.37.881,word_priming_exp,2024.1.5,None,2024-10-28 23h30.37.615826 +0530,
marble,,,,0,1,1,3,,,,,4.471846499945968,,4.448605299927294,4.471846499945968,4.471846499945968,6.261183299822733,1.0,1.788648399990052,,,,,,,,,,,,,,,ad,001,2024-10-28_23h29.37.881,word_priming_exp,2024.1.5,None,2024-10-28 23h30.37.615826 +0530,
cruise,,,,0,2,2,11,,,,,6.289189499802887,,6.26156899984926,6.289189499802887,6.289189499802887,7.346809799782932,1.0,1.062882199883461,,,,,,,,,,,,,,,ad,001,2024-10-28_23h29.37.881,word_priming_exp,2024.1.5,None,2024-10-28 23h30.37.615826 +0530,
board,,,,0,3,3,4,,,,,7.373165600001812,,7.34731059987098,7.373165600001812,7.373165600001812,9.346059900010005,1.0,1.9733066000044346,,,,,,,,,,,,,,,ad,001,2024-10-28_23h29.37.881,word_priming_exp,2024.1.5,None,2024-10-28 23h30.37.615826 +0530,
T-shirt,,,,0,4,4,7,,,,,9.373748399782926,,9.346459299791604,9.373748399782926,9.373748399782926,10.447578699793667,1.0,1.073484200052917,,,,,,,,,,,,,,,ad,001,2024-10-28_23h29.37.881,word_priming_exp,2024.1.5,None,2024-10-28 23h30.37.615826 +0530,
chart,,,,0,5,5,6,,,,,10.473938299808651,,10.44782799994573,10.473938299808651,10.473938299808651,11.680565199814737,1.0,1.2121552999597043,,,,,,,,,,,,,,,ad,001,2024-10-28_23h29.37.881,word_priming_exp,2024.1.5,None,2024-10-28 23h30.37.615826 +0530,
police,,,,0,6,6,12,,,,,11.70785539993085,,11.680967499967664,11.70785539993085,11.70785539993085,12.847767799859866,1.0,1.1447882000356913,,,,,,,,,,,,,,,ad,001,2024-10-28_23h29.37.881,word_priming_exp,2024.1.5,None,2024-10-28 23h30.37.615826 +0530,
phone,,,,0,7,7,2,,,,,12.875016799895093,,12.848027899861336,12.875016799895093,12.875016799895093,14.080729599809274,1.0,1.2086273001041263,,,,,,,,,,,,,,,ad,001,2024-10-28_23h29.37.881,word_priming_exp,2024.1.5,None,2024-10-28 23h30.37.615826 +0530,
pastry,,,,0,8,8,9,,,,,14.108854499878362,,14.080986599903554,14.108854499878362,14.108854499878362,15.415234099840745,1.0,1.3100743000395596,,,,,,,,,,,,,,,ad,001,2024-10-28_23h29.37.881,word_priming_exp,2024.1.5,None,2024-10-28 23h30.37.615826 +0530,
book,,,,0,9,9,0,,,,,15.442871099803597,,15.41551600000821,15.442871099803597,15.442871099803597,16.39892589999363,1.0,0.9626084000337869,,,,,,,,,,,,,,,ad,001,2024-10-28_23h29.37.881,word_priming_exp,2024.1.5,None,2024-10-28 23h30.37.615826 +0530,
cushion,,,,0,10,10,1,,,,,16.4263829998672,,16.399306299863383,16.4263829998672,16.4263829998672,17.77072269981727,1.0,1.3302313000895083,,,,,,,,,,,,,,,ad,001,2024-10-28_23h29.37.881,word_priming_exp,2024.1.5,None,2024-10-28 23h30.37.615826 +0530,
laptop,,,,0,11,11,5,,,,,17.793801999883726,,17.771294199861586,17.793801999883726,17.793801999883726,19.9998013000004,1.0,2.205450400011614,,,,,,,,,,,,,,,ad,001,2024-10-28_23h29.37.881,word_priming_exp,2024.1.5,None,2024-10-28 23h30.37.615826 +0530,
keys,,,,0,12,12,13,,,,,20.027947399998084,,20.000078299781308,20.027947399998084,20.027947399998084,21.220203999895602,1.0,1.1813145000487566,,,,,,,,,,,,,,,ad,001,2024-10-28_23h29.37.881,word_priming_exp,2024.1.5,None,2024-10-28 23h30.37.615826 +0530,
case,,,,0,13,13,10,,,,,21.244601499987766,,21.220516099827364,21.244601499987766,21.244601499987766,22.201392999850214,1.0,0.9574687001295388,,,,,,,,,,,,,,,ad,001,2024-10-28_23h29.37.881,word_priming_exp,2024.1.5,None,2024-10-28 23h30.37.615826 +0530,
mouse,,,,0,14,14,8,,,,,22.228870999999344,,22.201812599785626,22.228870999999344,22.228870999999344,23.1510818998795,1.0,0.9271247999276966,,,,,,,,,,,,,,,ad,001,2024-10-28_23h29.37.881,word_priming_exp,2024.1.5,None,2024-10-28 23h30.37.615826 +0530,
,p_as_tr_,pastry,old,,,,,0,0,0,4,23.178979699965566,,,,,,,,23.154733099974692,23.178979699965566,23.178979699965566,23.178979699965566,0.006646599853411317,33.15282139996998,pastry,[],[],[],[],[],[],[],ad,001,2024-10-28_23h29.37.881,word_priming_exp,2024.1.5,None,2024-10-28 23h30.37.615826 +0530,
,p_nc_l,pencil,new,,,,,0,1,1,16,33.16758729983121,,,,,,,,33.15363139985129,33.16758729983121,33.16758729983121,33.16758729983121,0.004229299956932664,39.590205299900845,"pencil
","[-0.045, -0.02]","[-0.24, -0.30333333333333334]","[1, 1]","[0, 0]","[0, 0]","[5.320215399842709, 6.434312699828297]",['text_4'],ad,001,2024-10-28_23h29.37.881,word_priming_exp,2024.1.5,None,2024-10-28 23h30.37.615826 +0530,
,ta_l_,table,new,,,,,0,2,2,15,39.603517199866474,,,,,,,,39.59077849984169,39.603517199866474,39.603517199866474,39.603517199866474,0.002175699919462204,49.59307049983181,ta,[],[],[],[],[],[],[],ad,001,2024-10-28_23h29.37.881,word_priming_exp,2024.1.5,None,2024-10-28 23h30.37.615826 +0530,
,_a_bl_,marble,old,,,,,0,3,3,11,49.60710159991868,,,,,,,,49.593537599779665,49.60710159991868,49.60710159991868,49.60710159991868,0.004737100098282099,59.596659699920565,table,[0.055],[-0.17333333333333334],[1],[0],[0],[5.033174199983478],[],ad,001,2024-10-28_23h29.37.881,word_priming_exp,2024.1.5,None,2024-10-28 23h30.37.615826 +0530,
,l_pt_p,laptop,old,,,,,0,4,4,0,59.61121579981409,,,,,,,,59.59719819994643,59.61121579981409,59.61121579981409,59.61121579981409,0.008451000088825822,69.60071589984,laptop,[-0.015],[-0.3933333333333333],[1],[0],[0],[3.265816899947822],[],ad,001,2024-10-28_23h29.37.881,word_priming_exp,2024.1.5,None,2024-10-28 23h30.37.615826 +0530,
,_ho_e,phone,old,,,,,0,5,5,12,69.6147649998311,,,,,,,,69.60120219993405,69.6147649998311,69.6147649998311,69.6147649998311,0.012310300022363663,79.60469379997812,shone,[0.23166666666666666],[-0.26166666666666666],[1],[0],[0],[6.6030446998775005],[],ad,001,2024-10-28_23h29.37.881,word_priming_exp,2024.1.5,None,2024-10-28 23h30.37.615826 +0530,
,_oo_,book,old,,,,,0,6,6,13,79.61897999979556,,,,,,,,79.60523419990204,79.61897999979556,79.61897999979556,79.61897999979556,0.016234900103881955,84.15805219998583,book,[-0.09833333333333333],[-0.2816666666666667],[1],[0],[0],[4.550661100074649],['text_4'],ad,001,2024-10-28_23h29.37.881,word_priming_exp,2024.1.5,None,2024-10-28 23h30.37.615826 +0530,
,c_m_ra,camera,new,,,,,0,7,7,19,84.17080489988439,,,,,,,,84.15856699994765,84.17080489988439,84.17080489988439,84.17080489988439,0.0021964001934975386,94.16091719991527,camera,[0.15],[-0.235],[1],[0],[0],[3.714447099948302],[],ad,001,2024-10-28_23h29.37.881,word_priming_exp,2024.1.5,None,2024-10-28 23h30.37.615826 +0530,
,_ou_se,mouse,old,,,,,0,8,8,3,94.17513949982822,,,,,,,,94.16152269998565,94.17513949982822,94.17513949982822,94.17513949982822,0.005570200039073825,104.16452159988694,m,[0.11666666666666667],[-0.265],[1],[0],[0],[0.12968580005690455],[],ad,001,2024-10-28_23h29.37.881,word_priming_exp,2024.1.5,None,2024-10-28 23h30.37.615826 +0530,
,k_y_,keys,old,,,,,0,9,9,8,104.17857519979589,,,,,,,,104.16503929998726,104.17857519979589,104.17857519979589,104.17857519979589,0.008515699999406934,107.95101769990288,keys,[0.1],[-0.2783333333333333],[1],[0],[0],[3.7835623999126256],['text_4'],ad,001,2024-10-28_23h29.37.881,word_priming_exp,2024.1.5,None,2024-10-28 23h30.37.615826 +0530,
,p_st_r,poster,old,,,,,0,10,10,9,107.9633174999617,,,,,,,,107.95151119981892,107.9633174999617,107.9633174999617,107.9633174999617,0.002328199800103903,111.30311369989067,poster,[0.06166666666666667],[-0.30833333333333335],[1],[0],[0],[3.3488942000549287],['text_4'],ad,001,2024-10-28_23h29.37.881,word_priming_exp,2024.1.5,None,2024-10-28 23h30.37.615826 +0530,
,_o_rd,board,old,,,,,0,11,11,10,111.31424699979834,,,,,,,,111.30366579978727,111.31424699979834,111.31424699979834,111.31424699979834,0.002170500112697482,117.37143179983832,cord,[0.06166666666666667],[-0.30833333333333335],[1],[0],[0],[6.065249600214884],['text_4'],ad,001,2024-10-28_23h29.37.881,word_priming_exp,2024.1.5,None,2024-10-28 23h30.37.615826 +0530,
,c_s_io_,cushion,old,,,,,0,12,12,14,117.38405039999634,,,,,,,,117.37192339985631,117.38405039999634,117.38405039999634,117.38405039999634,0.002126300008967519,123.10728090000339,cushion,[0.06166666666666667],[-0.30833333333333335],[1],[0],[0],[5.732811900088564],['text_4'],ad,001,2024-10-28_23h29.37.881,word_priming_exp,2024.1.5,None,2024-10-28 23h30.37.615826 +0530,
,T_hi_t,Tshirt,old,,,,,0,13,13,2,123.11931239999831,,,,,,,,123.10781369986944,123.11931239999831,123.11931239999831,123.11931239999831,0.002184899989515543,126.59148079995066,Tshirt,[0.06166666666666667],[-0.30833333333333335],[1],[0],[0],[3.4811621999833733],['text_4'],ad,001,2024-10-28_23h29.37.881,word_priming_exp,2024.1.5,None,2024-10-28 23h30.37.615826 +0530,
,c_s_,case,old,,,,,0,14,14,5,126.60436239978299,,,,,,,,126.59197389986366,126.60436239978299,126.60436239978299,126.60436239978299,0.0018706000410020351,128.4082666998729,case,[0.06166666666666667],[-0.30833333333333335],[1],[0],[0],[1.8140273001044989],['text_4'],ad,001,2024-10-28_23h29.37.881,word_priming_exp,2024.1.5,None,2024-10-28 23h30.37.615826 +0530,
,p_li_e,police,old,,,,,0,15,15,7,128.42121559986845,,,,,,,,128.40878149983473,128.42121559986845,128.42121559986845,128.42121559986845,0.0020157000981271267,138.4113107000012,pol,[],[],[],[],[],[],[],ad,001,2024-10-28_23h29.37.881,word_priming_exp,2024.1.5,None,2024-10-28 23h30.37.615826 +0530,
,bo_t_e,bottle,new,,,,,0,16,16,18,138.42570959986188,,,,,,,,138.4118125999812,138.42570959986188,138.42570959986188,138.42570959986188,0.005010399967432022,148.4153402999509,boot,[],[],[],[],[],[],[],ad,001,2024-10-28_23h29.37.881,word_priming_exp,2024.1.5,None,2024-10-28 23h30.37.615826 +0530,
,_ru_is_,cruise,old,,,,,0,17,17,6,148.42939599999227,,,,,,,,148.4158052999992,148.42939599999227,148.42939599999227,148.42939599999227,0.00907159992493689,151.51718889991753,cruise,[0.06166666666666667],[-0.30833333333333335],[1],[0],[0],[3.0989276999607682],['text_4'],ad,001,2024-10-28_23h29.37.881,word_priming_exp,2024.1.5,None,2024-10-28 23h30.37.615826 +0530,
,_ha_t,chart,old,,,,,0,18,18,1,151.5307469998952,,,,,,,,151.51775679993443,151.5307469998952,151.5307469998952,151.5307469998952,0.002040599938482046,153.55198309989646,chart,[0.06166666666666667],[-0.30833333333333335],[1],[0],[0],[2.0317713001277298],['text_4'],ad,001,2024-10-28_23h29.37.881,word_priming_exp,2024.1.5,None,2024-10-28 23h30.37.615826 +0530,
,v_s_,vase,new,,,,,0,19,19,17,153.58086629980244,,,,,,,,153.55249699996784,153.58086629980244,153.58086629980244,153.58086629980244,0.003504999913275242,155.60266549978405,vase,[0.06166666666666667],[-0.30833333333333335],[1],[0],[0],[2.0461573998909444],['text_4'],ad,001,2024-10-28_23h29.37.881,word_priming_exp,2024.1.5,None,2024-10-28 23h30.37.615826 +0530,
